trials.thisRepN,trials.thisTrialN,trials.thisN,trials.thisIndex,fixation.started,grating.started,key_resp.started,fixation.stopped,grating.stopped,tilt,key_resp.keys,key_resp.corr,key_resp.rt,key_resp.duration,participant,session,date,expName,psychopyVersion,frameRate
0,0,0,0,17.4138342,18.4290988,18.4290988,18.441566,18.7307705,0.5.5,up,1,1.0089529,None,276471,1,2023-10-06_11h38.02.243,EXP2,2023.1.3,89.40305579
1,0,1,0,19.4582944,20.4478806,20.4478806,20.4585997,20.7470387,0.5,up,1,1.6102196,None,276471,1,2023-10-06_11h38.02.243,EXP2,2023.1.3,89.40305579
2,0,2,0,22.0724959,23.0644454,23.0644454,23.0751131,23.3692396,0.5,up,1,0.3019329,None,276471,1,2023-10-06_11h38.02.243,EXP2,2023.1.3,89.40305579
3,0,3,0,23.3836558,24.3748347,24.3748347,24.386045,24.6756362,0.5,up,1,2.1906486,None,276471,1,2023-10-06_11h38.02.243,EXP2,2023.1.3,89.40305579
4,0,4,0,26.5914813,27.5809741,27.5809741,27.5918396,,3,down,1,0.101656,None,276471,1,2023-10-06_11h38.02.243,EXP2,2023.1.3,89.40305579
5,0,5,0,27.7053063,28.6977115,28.6977115,28.7079703,,-4,up,0,0.2341408,None,276471,1,2023-10-06_11h38.02.243,EXP2,2023.1.3,89.40305579
6,0,6,0,28.9581539,29.9526291,29.9526291,29.9633559,,0.5,down,1,0.0321964,None,276471,1,2023-10-06_11h38.02.243,EXP2,2023.1.3,89.40305579
7,0,7,0,30.0028984,30.9918685,30.9918685,31.0029512,31.2919436,0.5,down,0,0.3507987,None,276471,1,2023-10-06_11h38.02.243,EXP2,2023.1.3,89.40305579
8,0,8,0,31.3611495,32.3580837,32.3580837,32.3699273,,0.5,up,1,0.1019944,None,276471,1,2023-10-06_11h38.02.243,EXP2,2023.1.3,89.40305579
9,0,9,0,32.4915091,33.4808022,33.4808022,33.4920525,33.78019,0.5,up,1,0.3466578,None,276471,1,2023-10-06_11h38.02.243,EXP2,2023.1.3,89.40305579
10,0,10,0,33.8501191,34.8471792,34.8471792,34.8582267,,0.5,up,1,0.1335726,None,276471,1,2023-10-06_11h38.02.243,EXP2,2023.1.3,89.40305579
11,0,11,0,34.9945401,35.9860072,35.9860072,35.9974824,,0.5,up,1,0.0273717,None,276471,1,2023-10-06_11h38.02.243,EXP2,2023.1.3,89.40305579
12,0,12,0,36.0354286,37.0251747,37.0251747,37.0364005,37.3247715,0.5,up,1,0.3264646,None,276471,1,2023-10-06_11h38.02.243,EXP2,2023.1.3,89.40305579
13,0,13,0,37.3714132,38.3639732,38.3639732,38.374831,,0.5,up,1,0.2714386,None,276471,1,2023-10-06_11h38.02.243,EXP2,2023.1.3,89.40305579
14,0,14,0,38.6584679,39.6521501,39.6521501,39.6635729,39.9524629,-5,down,1,0.6989911,None,276471,1,2023-10-06_11h38.02.243,EXP2,2023.1.3,89.40305579
15,0,15,0,40.3690321,41.3577782,41.3577782,41.3690255,,0.5,down,0,0.2366032,None,276471,1,2023-10-06_11h38.02.243,EXP2,2023.1.3,89.40305579
16,0,16,0,41.6160121,42.608458,42.608458,42.6190158,42.9079371,0.5,up,1,0.3546836,None,276471,1,2023-10-06_11h38.02.243,EXP2,2023.1.3,89.40305579
17,0,17,0,42.9806508,43.9691488,43.9691488,43.9805107,44.272503,0.5,up,1,0.2813697,None,276471,1,2023-10-06_11h38.02.243,EXP2,2023.1.3,89.40305579
18,0,18,0,44.272503,45.2687887,45.2687887,45.2804455,45.5691135,0.5,down,0,0.3054195,None,276471,1,2023-10-06_11h38.02.243,EXP2,2023.1.3,89.40305579
19,0,19,0,45.5933385,46.5856455,46.5856455,46.597638,,0.5,up,1,0.0348791,None,276471,1,2023-10-06_11h38.02.243,EXP2,2023.1.3,89.40305579
20,0,20,0,46.6466927,47.6357313,47.6357313,47.6466463,,-3,up,0,0.1729666,None,276471,1,2023-10-06_11h38.02.243,EXP2,2023.1.3,89.40305579
21,0,21,0,47.8264783,48.8195812,48.8195812,48.8300167,,0.5,up,1,0.1327179,None,276471,1,2023-10-06_11h38.02.243,EXP2,2023.1.3,89.40305579
22,0,22,0,48.9689709,49.9633082,49.9633082,49.9740414,,-2,up,0,0.2312868,None,276471,1,2023-10-06_11h38.02.243,EXP2,2023.1.3,89.40305579
23,0,23,0,50.2140573,51.2020375,51.2020375,51.2131522,,0.5,down,0,0.0658194,None,276471,1,2023-10-06_11h38.02.243,EXP2,2023.1.3,89.40305579
24,0,24,0,51.2824186,52.2745229,52.2745229,52.2857693,52.5744815,0.5,down,0,0.3115436,None,276471,1,2023-10-06_11h38.02.243,EXP2,2023.1.3,89.40305579
25,0,25,0,52.6023256,53.5915966,53.5915966,53.6022241,,0.5,up,1,0.0018621,None,276471,1,2023-10-06_11h38.02.243,EXP2,2023.1.3,89.40305579
26,0,26,0,53.6156099,54.6083577,54.6083577,54.6278086,,-5,up,0,0.2532676,None,276471,1,2023-10-06_11h38.02.243,EXP2,2023.1.3,89.40305579
27,0,27,0,54.8833716,55.8806151,55.8806151,55.89142,,0.5,up,1,0.2234694,None,276471,1,2023-10-06_11h38.02.243,EXP2,2023.1.3,89.40305579
28,0,28,0,56.1263984,57.11906,57.11906,57.1297552,,4,up,0,0.2182852,None,276471,1,2023-10-06_11h38.02.243,EXP2,2023.1.3,89.40305579
29,0,29,0,57.358291,58.3465055,58.3465055,58.3575573,,-1,down,1,0.1495706,None,276471,1,2023-10-06_11h38.02.243,EXP2,2023.1.3,89.40305579
30,0,30,0,58.5147909,59.5082987,59.5082987,59.5190017,,0.5,up,1,0.2556025,None,276471,1,2023-10-06_11h38.02.243,EXP2,2023.1.3,89.40305579
31,0,31,0,59.7827308,60.7744947,60.7744947,60.7862029,,0.5,up,1,0.0825017,None,276471,1,2023-10-06_11h38.02.243,EXP2,2023.1.3,89.40305579
32,0,32,0,60.8823316,61.874622,61.874622,61.8858444,,0.5,down,1,0.1314029,None,276471,1,2023-10-06_11h38.02.243,EXP2,2023.1.3,89.40305579
33,0,33,0,62.0251773,63.0133108,63.0133108,63.0246847,,-4,up,0,0.0792412,None,276471,1,2023-10-06_11h38.02.243,EXP2,2023.1.3,89.40305579
34,0,34,0,63.1163346,64.1074725,64.1074725,64.1195002,,0.5,down,0,0.0590709,None,276471,1,2023-10-06_11h38.02.243,EXP2,2023.1.3,89.40305579
35,0,35,0,64.1908193,65.1851858,65.1851858,65.1970993,65.4857983,4,up,0,0.349493,None,276471,1,2023-10-06_11h38.02.243,EXP2,2023.1.3,89.40305579
36,0,36,0,65.5580039,66.5464492,66.5464492,66.5579621,66.846954,3,up,0,0.344995,None,276471,1,2023-10-06_11h38.02.243,EXP2,2023.1.3,89.40305579
37,0,37,0,66.9050542,67.8965013,67.8965013,67.9074966,68.2020179,0.5,up,1,0.2886901,None,276471,1,2023-10-06_11h38.02.243,EXP2,2023.1.3,89.40305579
38,0,38,0,68.2020179,69.191357,69.191357,69.2019222,,-4,up,0,0.1412926,None,276471,1,2023-10-06_11h38.02.243,EXP2,2023.1.3,89.40305579
39,0,39,0,69.3500149,70.3464169,70.3464169,70.3582591,,0.5,down,0,0.0491844,None,276471,1,2023-10-06_11h38.02.243,EXP2,2023.1.3,89.40305579
40,0,40,0,70.4153487,71.4072245,71.4072245,71.4183284,,0.5,up,1,0.1877248,None,276471,1,2023-10-06_11h38.02.243,EXP2,2023.1.3,89.40305579
41,0,41,0,71.6128019,72.6022725,72.6022725,72.6128684,72.901744,-1,up,0,0.4745946,None,276471,1,2023-10-06_11h38.02.243,EXP2,2023.1.3,89.40305579
42,0,42,0,73.0925258,74.085557,74.085557,74.0962744,,0.5,down,0,0.2444534,None,276471,1,2023-10-06_11h38.02.243,EXP2,2023.1.3,89.40305579
43,0,43,0,74.3460833,75.3409754,75.3409754,75.352091,,0.5,up,0,0.0317887,None,276471,1,2023-10-06_11h38.02.243,EXP2,2023.1.3,89.40305579
44,0,44,0,75.3905312,76.3797042,76.3797042,76.3907186,,2,down,1,0.021805,None,276471,1,2023-10-06_11h38.02.243,EXP2,2023.1.3,89.40305579
45,0,45,0,76.4157906,77.4069065,77.4069065,77.4183639,77.7070798,0.5,up,1,0.8707998,None,276471,1,2023-10-06_11h38.02.243,EXP2,2023.1.3,89.40305579
46,0,46,0,78.3015709,79.2910311,79.2910311,79.3020889,,-4,down,1,0.0250058,None,276471,1,2023-10-06_11h38.02.243,EXP2,2023.1.3,89.40305579
47,0,47,0,79.3369641,80.3298418,80.3298418,80.3410438,,0.5,down,0,0.2148135,None,276471,1,2023-10-06_11h38.02.243,EXP2,2023.1.3,89.40305579
48,0,48,0,80.5684045,81.5569498,81.5569498,81.5681654,,4,down,1,0.1503234,None,276471,1,2023-10-06_11h38.02.243,EXP2,2023.1.3,89.40305579
49,0,49,0,81.7263582,82.7184478,82.7184478,82.7291239,,-1,down,1,0.246274,None,276471,1,2023-10-06_11h38.02.243,EXP2,2023.1.3,89.40305579
50,0,50,0,82.9914808,83.9793141,83.9793141,84.0014354,,0.5,down,0,0.1441653,None,276471,1,2023-10-06_11h38.02.243,EXP2,2023.1.3,89.40305579
51,0,51,0,84.137044,85.1356934,85.1356934,85.1461899,85.4354118,0.5,down,0,0.320336,None,276471,1,2023-10-06_11h38.02.243,EXP2,2023.1.3,89.40305579
52,0,52,0,85.4709104,86.4627313,86.4627313,86.474164,86.7623367,0.5,up,1,0.4102356,None,276471,1,2023-10-06_11h38.02.243,EXP2,2023.1.3,89.40305579
53,0,53,0,86.890907,87.8792327,87.8792327,87.8901885,,-5,down,1,0.0721764,None,276471,1,2023-10-06_11h38.02.243,EXP2,2023.1.3,89.40305579
54,0,54,0,87.9716243,88.96264,88.96264,88.9743886,89.2627753,0.5,down,0,0.326229,None,276471,1,2023-10-06_11h38.02.243,EXP2,2023.1.3,89.40305579
55,0,55,0,89.3134841,90.3067414,90.3067414,90.3181637,,2,down,1,0.1119147,None,276471,1,2023-10-06_11h38.02.243,EXP2,2023.1.3,89.40305579
56,0,56,0,90.4465473,91.4345723,91.4345723,91.4457528,,-2,up,0,0.1606993,None,276471,1,2023-10-06_11h38.02.243,EXP2,2023.1.3,89.40305579
57,0,57,0,91.6145682,92.6072794,92.6072794,92.6189232,92.9075346,0.5,down,0,0.9354655,None,276471,1,2023-10-06_11h38.02.243,EXP2,2023.1.3,89.40305579
58,0,58,0,93.5679974,94.5566408,94.5566408,94.5680141,,-1,down,1,0.1335954,None,276471,1,2023-10-06_11h38.02.243,EXP2,2023.1.3,89.40305579
59,0,59,0,94.7041742,95.7016194,95.7016194,95.7131498,,3,up,0,0.0472431,None,276471,1,2023-10-06_11h38.02.243,EXP2,2023.1.3,89.40305579
60,0,60,0,95.7700819,96.7624133,96.7624133,96.7735269,,1,up,0,0.1592543,None,276471,1,2023-10-06_11h38.02.243,EXP2,2023.1.3,89.40305579
61,0,61,0,96.9464766,97.9347968,97.9347968,97.9464292,,0.5,down,0,0.1104947,None,276471,1,2023-10-06_11h38.02.243,EXP2,2023.1.3,89.40305579
62,0,62,0,98.0597752,99.0518938,99.0518938,99.0623209,,0.5,down,0,0.2355232,None,276471,1,2023-10-06_11h38.02.243,EXP2,2023.1.3,89.40305579
63,0,63,0,99.3129084,100.3076342,100.3076342,100.317976,,0.5,down,0,0.1137953,None,276471,1,2023-10-06_11h38.02.243,EXP2,2023.1.3,89.40305579
64,0,64,0,100.4460962,101.4351096,101.4351096,101.4458501,,4,up,0,0.0500865,None,276471,1,2023-10-06_11h38.02.243,EXP2,2023.1.3,89.40305579
65,0,65,0,101.5029036,102.4960179,102.4960179,102.50715,102.7954816,0.5,up,1,0.3457261,None,276471,1,2023-10-06_11h38.02.243,EXP2,2023.1.3,89.40305579
66,0,66,0,102.8683705,103.8567066,103.8567066,103.8687505,,0.5,up,1,0.2639532,None,276471,1,2023-10-06_11h38.02.243,EXP2,2023.1.3,89.40305579
67,0,67,0,104.1370405,105.1287549,105.1287549,105.1401557,105.4291444,2,up,0,0.3249651,None,276471,1,2023-10-06_11h38.02.243,EXP2,2023.1.3,89.40305579
68,0,68,0,105.4788249,106.46803,106.46803,106.4787502,106.7683635,0.5,up,1,0.4227991,None,276471,1,2023-10-06_11h38.02.243,EXP2,2023.1.3,89.40305579
69,0,69,0,106.9051228,107.8953913,107.8953913,107.9070226,,0.5,down,0,0.253173,None,276471,1,2023-10-06_11h38.02.243,EXP2,2023.1.3,89.40305579
70,0,70,0,108.1686353,109.1569086,109.1569086,109.1684698,,0.5,up,1,0.1952734,None,276471,1,2023-10-06_11h38.02.243,EXP2,2023.1.3,89.40305579
71,0,71,0,109.3706843,110.3679279,110.3679279,110.3794704,,0.5,up,1,0.271685,None,276471,1,2023-10-06_11h38.02.243,EXP2,2023.1.3,89.40305579
72,0,72,0,110.6606114,111.6507078,111.6507078,111.6631891,,0.5,up,0,0.2223226,None,276471,1,2023-10-06_11h38.02.243,EXP2,2023.1.3,89.40305579
73,0,73,0,111.8906514,112.8789263,112.8789263,112.8896761,,0.5,up,1,0.1814788,None,276471,1,2023-10-06_11h38.02.243,EXP2,2023.1.3,89.40305579
74,0,74,0,113.0812473,114.0735507,114.0735507,114.0842182,,-1,up,0,0.2203238,None,276471,1,2023-10-06_11h38.02.243,EXP2,2023.1.3,89.40305579
75,0,75,0,114.3121245,115.3071722,115.3071722,115.3178788,,0.5,down,0,0.0210375,None,276471,1,2023-10-06_11h38.02.243,EXP2,2023.1.3,89.40305579
76,0,76,0,115.3462755,116.3344012,116.3344012,116.3462015,,2,up,0,0.255785,None,276471,1,2023-10-06_11h38.02.243,EXP2,2023.1.3,89.40305579
77,0,77,0,116.6039058,117.5951484,117.5951484,117.6065213,,-3,down,1,0.0682171,None,276471,1,2023-10-06_11h38.02.243,EXP2,2023.1.3,89.40305579
78,0,78,0,117.69045,118.6787768,118.6787768,118.6910123,,0.5,up,1,0.2677277,None,276471,1,2023-10-06_11h38.02.243,EXP2,2023.1.3,89.40305579
79,0,79,0,118.960378,119.9565377,119.9565377,119.9680067,,-1,down,1,0.1988669,None,276471,1,2023-10-06_11h38.02.243,EXP2,2023.1.3,89.40305579
80,0,80,0,120.1705439,121.1624258,121.1624258,121.1732556,,0.5,up,1,0.1155641,None,276471,1,2023-10-06_11h38.02.243,EXP2,2023.1.3,89.40305579
81,0,81,0,121.3013945,122.2900514,122.2900514,122.3005739,,1,down,1,0.1066022,None,276471,1,2023-10-06_11h38.02.243,EXP2,2023.1.3,89.40305579
82,0,82,0,122.4140537,123.4065978,123.4065978,123.4180868,,-1,down,1,0.0037638,None,276471,1,2023-10-06_11h38.02.243,EXP2,2023.1.3,89.40305579
83,0,83,0,123.4345901,124.4238128,124.4238128,124.4345295,124.7234188,0.5,up,1,0.3788154,None,276471,1,2023-10-06_11h38.02.243,EXP2,2023.1.3,89.40305579
84,0,84,0,124.8231024,125.8121284,125.8121284,125.8235309,126.1127272,-2,up,0,2.0449434,None,276471,1,2023-10-06_11h38.02.243,EXP2,2023.1.3,89.40305579
85,0,85,0,127.8800433,128.8731403,128.8731403,128.8846787,,1,down,1,0.0577283,None,276471,1,2023-10-06_11h38.02.243,EXP2,2023.1.3,89.40305579
86,0,86,0,128.9572518,129.9508711,129.9508711,129.9623476,,0.5,down,0,0.2680546,None,276471,1,2023-10-06_11h38.02.243,EXP2,2023.1.3,89.40305579
87,0,87,0,130.2457696,131.234286,131.234286,131.2455949,,0.5,up,1,0.2472996,None,276471,1,2023-10-06_11h38.02.243,EXP2,2023.1.3,89.40305579
88,0,88,0,131.5037803,132.4954392,132.4954392,132.5063384,132.7953155,-1,down,1,3.5649452,None,276471,1,2023-10-06_11h38.02.243,EXP2,2023.1.3,89.40305579
89,0,89,0,136.0813623,137.0729306,137.0729306,137.0845237,,4,down,1,0.0621183,None,276471,1,2023-10-06_11h38.02.243,EXP2,2023.1.3,89.40305579
90,0,90,0,137.1570404,138.1452264,138.1452264,138.1563734,138.4454879,-1,up,0,0.4057851,None,276471,1,2023-10-06_11h38.02.243,EXP2,2023.1.3,89.40305579
91,0,91,0,138.5711806,139.5616263,139.5616263,139.5732934,,-4,down,1,0.1019593,None,276471,1,2023-10-06_11h38.02.243,EXP2,2023.1.3,89.40305579
92,0,92,0,139.6899646,140.6837108,140.6837108,140.6953089,140.9843128,-2,up,0,0.5685559,None,276471,1,2023-10-06_11h38.02.243,EXP2,2023.1.3,89.40305579
93,0,93,0,141.2789707,142.2670678,142.2670678,142.2787405,142.567768,-3,up,0,2.1693901,None,276471,1,2023-10-06_11h38.02.243,EXP2,2023.1.3,89.40305579
94,0,94,0,144.4591758,145.4560967,145.4560967,145.467205,145.7564902,4,down,1,0.3135724,None,276471,1,2023-10-06_11h38.02.243,EXP2,2023.1.3,89.40305579
95,0,95,0,145.7923887,146.7846982,146.7846982,146.7953645,147.0836131,4,up,0,0.3721828,None,276471,1,2023-10-06_11h38.02.243,EXP2,2023.1.3,89.40305579
96,0,96,0,147.1790376,148.1671386,148.1671386,148.1790021,,1,up,0,0.1342296,None,276471,1,2023-10-06_11h38.02.243,EXP2,2023.1.3,89.40305579
97,0,97,0,148.3243935,149.3170347,149.3170347,149.3288983,149.6174733,0.5,down,0,0.5005333,None,276471,1,2023-10-06_11h38.02.243,EXP2,2023.1.3,89.40305579
98,0,98,0,149.8457477,150.8393264,150.8393264,150.8505243,151.1396432,0.5,up,0,0.4788753,None,276471,1,2023-10-06_11h38.02.243,EXP2,2023.1.3,89.40305579
99,0,99,0,151.3446464,152.3337622,152.3337622,152.3446227,152.6340107,-4,down,1,0.4901654,None,276471,1,2023-10-06_11h38.02.243,EXP2,2023.1.3,89.40305579
100,0,100,0,152.8472809,153.8395273,153.8395273,153.8508283,154.1394694,-5,down,1,1.7148875,None,276471,1,2023-10-06_11h38.02.243,EXP2,2023.1.3,89.40305579
101,0,101,0,155.5780271,156.5671219,156.5671219,156.5779604,156.867354,0.5,up,1,0.905336,None,276471,1,2023-10-06_11h38.02.243,EXP2,2023.1.3,89.40305579
102,0,102,0,157.4928284,158.4832297,158.4832297,158.495392,,0.5,down,1,0.2009295,None,276471,1,2023-10-06_11h38.02.243,EXP2,2023.1.3,89.40305579
103,0,103,0,158.7005997,159.6889256,159.6889256,159.7001305,159.9888703,0.5,down,0,0.3687163,None,276471,1,2023-10-06_11h38.02.243,EXP2,2023.1.3,89.40305579
104,0,104,0,160.0814542,161.0724448,161.0724448,161.0841544,161.3732039,-1,up,0,0.3635868,None,276471,1,2023-10-06_11h38.02.243,EXP2,2023.1.3,89.40305579
105,0,105,0,161.4565302,162.4444523,162.4444523,162.4558315,,0.5,up,0,0.0403025,None,276471,1,2023-10-06_11h38.02.243,EXP2,2023.1.3,89.40305579
106,0,106,0,162.5027609,163.4952111,163.4952111,163.5060149,163.7947488,0.5,down,0,0.3217382,None,276471,1,2023-10-06_11h38.02.243,EXP2,2023.1.3,89.40305579
107,0,107,0,163.8337481,164.8230323,164.8230323,164.8335754,165.1279771,0.5,down,0,0.3366503,None,276471,1,2023-10-06_11h38.02.243,EXP2,2023.1.3,89.40305579
108,0,108,0,165.1778224,166.1674297,166.1674297,166.1780158,,0.5,up,1,0.0503062,None,276471,1,2023-10-06_11h38.02.243,EXP2,2023.1.3,89.40305579
109,0,109,0,166.2367201,167.2284398,167.2284398,167.2394179,,4,up,0,0.2124694,None,276471,1,2023-10-06_11h38.02.243,EXP2,2023.1.3,89.40305579
110,0,110,0,167.4672696,168.4558027,168.4558027,168.4671934,,0.5,up,1,0.0333059,None,276471,1,2023-10-06_11h38.02.243,EXP2,2023.1.3,89.40305579
111,0,111,0,168.503307,169.4947392,169.4947392,169.5060104,,0.5,down,0,0.2440041,None,276471,1,2023-10-06_11h38.02.243,EXP2,2023.1.3,89.40305579
112,0,112,0,169.7558904,170.7500854,170.7500854,170.7614581,,3,up,0,0.1253394,None,276471,1,2023-10-06_11h38.02.243,EXP2,2023.1.3,89.40305579
113,0,113,0,170.9003357,171.8886775,171.8886775,171.8998264,,0.5,down,0,0.0160232,None,276471,1,2023-10-06_11h38.02.243,EXP2,2023.1.3,89.40305579
114,0,114,0,171.9241871,172.9164391,172.9164391,172.9279501,,0.5,up,1,0.0606937,None,276471,1,2023-10-06_11h38.02.243,EXP2,2023.1.3,89.40305579
115,0,115,0,173.0002328,173.9890083,173.9890083,173.9996841,174.2890534,0.5,up,0,0.3432775,None,276471,1,2023-10-06_11h38.02.243,EXP2,2023.1.3,89.40305579
116,0,116,0,174.3464983,175.3442223,175.3442223,175.3553803,,2,down,1,0.015947,None,276471,1,2023-10-06_11h38.02.243,EXP2,2023.1.3,89.40305579
117,0,117,0,175.379543,176.3720387,176.3720387,176.382865,176.6722128,0.5,down,0,0.33477,None,276471,1,2023-10-06_11h38.02.243,EXP2,2023.1.3,89.40305579
118,0,118,0,176.7223759,177.7111978,177.7111978,177.7229599,,0.5,up,1,0.0546016,None,276471,1,2023-10-06_11h38.02.243,EXP2,2023.1.3,89.40305579
119,0,119,0,177.7816745,178.7718218,178.7718218,178.7838887,179.0722305,0.5,up,1,0.312282,None,276471,1,2023-10-06_11h38.02.243,EXP2,2023.1.3,89.40305579
120,0,120,0,179.1114925,180.0999497,180.0999497,180.1108223,,0.5,down,0,0.0516601,None,276471,1,2023-10-06_11h38.02.243,EXP2,2023.1.3,89.40305579
121,0,121,0,180.1691419,181.1612016,181.1612016,181.1725105,,0.5,down,0,0.2280944,None,276471,1,2023-10-06_11h38.02.243,EXP2,2023.1.3,89.40305579
122,0,122,0,181.41159,182.3996593,182.3996593,182.4108573,,0.5,down,0,0.1089293,None,276471,1,2023-10-06_11h38.02.243,EXP2,2023.1.3,89.40305579
123,0,123,0,182.5236801,183.5169639,183.5169639,183.5275595,,-3,up,0,0.0348278,None,276471,1,2023-10-06_11h38.02.243,EXP2,2023.1.3,89.40305579
124,0,124,0,183.5781536,184.566301,184.566301,184.5772862,184.8664867,0.5,up,1,0.3183074,None,276471,1,2023-10-06_11h38.02.243,EXP2,2023.1.3,89.40305579
125,0,125,0,184.9038536,185.8940616,185.8940616,185.9058285,186.1942018,0.5,up,1,0.5331972,None,276471,1,2023-10-06_11h38.02.243,EXP2,2023.1.3,89.40305579
126,0,126,0,186.4445714,187.4330381,187.4330381,187.4440485,187.7330992,-4,up,0,0.800889,None,276471,1,2023-10-06_11h38.02.243,EXP2,2023.1.3,89.40305579
127,0,127,0,188.2570446,189.2495814,189.2495814,189.2607209,189.5493103,0.5,up,1,0.7472446,None,276471,1,2023-10-06_11h38.02.243,EXP2,2023.1.3,89.40305579
128,0,128,0,190.0219001,191.0109041,191.0109041,191.0224654,,0.5,down,0,0.0490966,None,276471,1,2023-10-06_11h38.02.243,EXP2,2023.1.3,89.40305579
129,0,129,0,191.0796473,192.0718618,192.0718618,192.0832108,,0.5,down,0,0.1182284,None,276471,1,2023-10-06_11h38.02.243,EXP2,2023.1.3,89.40305579
130,0,130,0,192.211011,193.1998642,193.1998642,193.211064,193.4998187,-5,down,1,0.8051711,None,276471,1,2023-10-06_11h38.02.243,EXP2,2023.1.3,89.40305579
131,0,131,0,194.0266419,195.0217618,195.0217618,195.0328166,,3,down,1,0.0671777,None,276471,1,2023-10-06_11h38.02.243,EXP2,2023.1.3,89.40305579
132,0,132,0,195.1031818,196.0941075,196.0941075,196.1056562,196.3949584,0.5,down,0,0.7568332,None,276471,1,2023-10-06_11h38.02.243,EXP2,2023.1.3,89.40305579
133,0,133,0,196.8781327,197.8665653,197.8665653,197.8775344,,0.5,up,1,0.1733049,None,276471,1,2023-10-06_11h38.02.243,EXP2,2023.1.3,89.40305579
134,0,134,0,198.0582708,199.0502597,199.0502597,199.0608521,,4,up,0,0.2089552,None,276471,1,2023-10-06_11h38.02.243,EXP2,2023.1.3,89.40305579
135,0,135,0,199.2778012,200.2721624,200.2721624,200.2827716,200.5721066,0.5,down,0,0.3193007,None,276471,1,2023-10-06_11h38.02.243,EXP2,2023.1.3,89.40305579
136,0,136,0,200.6104953,201.5992561,201.5992561,201.6103608,,1,up,0,0.1394847,None,276471,1,2023-10-06_11h38.02.243,EXP2,2023.1.3,89.40305579
137,0,137,0,201.7570714,202.7493243,202.7493243,202.7610303,203.0499651,0.5,up,1,0.3425119,None,276471,1,2023-10-06_11h38.02.243,EXP2,2023.1.3,89.40305579
138,0,138,0,203.1113284,204.0994982,204.0994982,204.1103258,,1,down,1,0.0522,None,276471,1,2023-10-06_11h38.02.243,EXP2,2023.1.3,89.40305579
139,0,139,0,204.1691004,205.1663296,205.1663296,205.1781489,,0.5,down,0,0.0319846,None,276471,1,2023-10-06_11h38.02.243,EXP2,2023.1.3,89.40305579
140,0,140,0,205.2135892,206.2058812,206.2058812,206.2164524,,-1,up,0,0.0374924,None,276471,1,2023-10-06_11h38.02.243,EXP2,2023.1.3,89.40305579
141,0,141,0,206.2662151,207.2547737,207.2547737,207.2659788,,0.5,down,0,0.1607823,None,276471,1,2023-10-06_11h38.02.243,EXP2,2023.1.3,89.40305579
142,0,142,0,207.4354095,208.4281048,208.4281048,208.4387238,,0.5,up,1,0.2151908,None,276471,1,2023-10-06_11h38.02.243,EXP2,2023.1.3,89.40305579
143,0,143,0,208.6667845,209.654481,209.654481,209.6778015,,-1,down,1,0.0269641,None,276471,1,2023-10-06_11h38.02.243,EXP2,2023.1.3,89.40305579
144,0,144,0,209.7010412,210.6990516,210.6990516,210.7103417,,2,up,0,0.0516151,None,276471,1,2023-10-06_11h38.02.243,EXP2,2023.1.3,89.40305579
145,0,145,0,210.7681374,211.7606776,211.7606776,211.7725299,,0.5,down,0,0.0776825,None,276471,1,2023-10-06_11h38.02.243,EXP2,2023.1.3,89.40305579
146,0,146,0,211.8556963,212.8434343,212.8434343,212.8658859,,0.5,up,1,0.0490862,None,276471,1,2023-10-06_11h38.02.243,EXP2,2023.1.3,89.40305579
147,0,147,0,212.9122602,213.9051927,213.9051927,213.9165424,214.2107648,0.5,up,1,0.2849313,None,276471,1,2023-10-06_11h38.02.243,EXP2,2023.1.3,89.40305579
148,0,148,0,214.2107648,215.2101462,215.2101462,215.2211348,215.5106451,0.5,up,1,0.3234353,None,276471,1,2023-10-06_11h38.02.243,EXP2,2023.1.3,89.40305579
149,0,149,0,215.5567327,216.5495559,216.5495559,216.5609981,,4,down,1,0.0877715,None,276471,1,2023-10-06_11h38.02.243,EXP2,2023.1.3,89.40305579
150,0,150,0,216.6550678,217.643699,217.643699,217.6546579,,0.5,up,0,0.0520782,None,276471,1,2023-10-06_11h38.02.243,EXP2,2023.1.3,89.40305579
151,0,151,0,217.7133514,218.7052547,218.7052547,218.7158066,,0.5,down,0,0.0878187,None,276471,1,2023-10-06_11h38.02.243,EXP2,2023.1.3,89.40305579
152,0,152,0,218.8103533,219.7988319,219.7988319,219.809895,,0.5,up,0,0.0123551,None,276471,1,2023-10-06_11h38.02.243,EXP2,2023.1.3,89.40305579
153,0,153,0,219.8341214,220.8330557,220.8330557,220.8437131,221.1325461,0.5,up,1,0.2964113,None,276471,1,2023-10-06_11h38.02.243,EXP2,2023.1.3,89.40305579
154,0,154,0,221.1462109,222.1382961,222.1382961,222.1494307,,0.5,down,0,0.0099733,None,276471,1,2023-10-06_11h38.02.243,EXP2,2023.1.3,89.40305579
155,0,155,0,222.1665769,223.154898,223.154898,223.1661798,,-2,up,0,0.0369104,None,276471,1,2023-10-06_11h38.02.243,EXP2,2023.1.3,89.40305579
156,0,156,0,223.2124032,224.2053812,224.2053812,224.2162664,224.504622,-3,up,0,0.3146549,None,276471,1,2023-10-06_11h38.02.243,EXP2,2023.1.3,89.40305579
157,0,157,0,224.5437471,225.5383672,225.5383672,225.5492938,,0.5,down,0,0.0546745,None,276471,1,2023-10-06_11h38.02.243,EXP2,2023.1.3,89.40305579
158,0,158,0,225.6110918,226.5993052,226.5993052,226.6099897,,0.5,up,1,0.0518802,None,276471,1,2023-10-06_11h38.02.243,EXP2,2023.1.3,89.40305579
159,0,159,0,226.6694348,227.6604795,227.6604795,227.6715454,,2,down,1,0.2236077,None,276471,1,2023-10-06_11h38.02.243,EXP2,2023.1.3,89.40305579
160,0,160,0,227.9101979,228.8993075,228.8993075,228.9106825,,0.5,up,1,0.1387348,None,276471,1,2023-10-06_11h38.02.243,EXP2,2023.1.3,89.40305579
161,0,161,0,229.058023,230.0491273,230.0491273,230.0606152,,3,up,0,0.1932017,None,276471,1,2023-10-06_11h38.02.243,EXP2,2023.1.3,89.40305579
162,0,162,0,230.2576645,231.2494369,231.2494369,231.2599559,,0.5,down,0,0.1791584,None,276471,1,2023-10-06_11h38.02.243,EXP2,2023.1.3,89.40305579
163,0,163,0,231.4552824,232.4431118,232.4431118,232.4655146,,0.5,up,0,0.064364,None,276471,1,2023-10-06_11h38.02.243,EXP2,2023.1.3,89.40305579
164,0,164,0,232.5229913,233.5160082,233.5160082,233.5271017,,0.5,down,0,0.0954546,None,276471,1,2023-10-06_11h38.02.243,EXP2,2023.1.3,89.40305579
165,0,165,0,233.6321942,234.6213263,234.6213263,234.632277,,0.5,down,0,0.2435086,None,276471,1,2023-10-06_11h38.02.243,EXP2,2023.1.3,89.40305579
166,0,166,0,234.8791003,235.8763616,235.8763616,235.8877203,,3,down,1,0.1463232,None,276471,1,2023-10-06_11h38.02.243,EXP2,2023.1.3,89.40305579
167,0,167,0,236.0445023,237.0382072,237.0382072,237.0487857,237.3371484,0.5,down,0,0.3273254,None,276471,1,2023-10-06_11h38.02.243,EXP2,2023.1.3,89.40305579
168,0,168,0,237.3881421,238.3764447,238.3764447,238.3885278,,0.5,up,1,0.1615977,None,276471,1,2023-10-06_11h38.02.243,EXP2,2023.1.3,89.40305579
169,0,169,0,238.5562719,239.5491523,239.5491523,239.5605509,,3,down,1,0.1028682,None,276471,1,2023-10-06_11h38.02.243,EXP2,2023.1.3,89.40305579
170,0,170,0,239.6766882,240.6711619,240.6711619,240.682509,,1,up,0,0.0499022,None,276471,1,2023-10-06_11h38.02.243,EXP2,2023.1.3,89.40305579
171,0,171,0,240.7437192,241.7318014,241.7318014,241.7430817,242.031998,0.5,up,1,0.341163,None,276471,1,2023-10-06_11h38.02.243,EXP2,2023.1.3,89.40305579
172,0,172,0,242.0919061,243.0822679,243.0822679,243.0933803,,2,down,1,0.0844224,None,276471,1,2023-10-06_11h38.02.243,EXP2,2023.1.3,89.40305579
173,0,173,0,243.1875577,244.1765593,244.1765593,244.1880475,,2,up,0,0.053658,None,276471,1,2023-10-06_11h38.02.243,EXP2,2023.1.3,89.40305579
174,0,174,0,244.246075,245.2375244,245.2375244,245.2485502,,0.5,down,0,0.0260531,None,276471,1,2023-10-06_11h38.02.243,EXP2,2023.1.3,89.40305579
175,0,175,0,245.2876198,246.2767987,246.2767987,246.2879199,246.5765803,0.5,down,0,0.3302106,None,276471,1,2023-10-06_11h38.02.243,EXP2,2023.1.3,89.40305579
176,0,176,0,246.6234996,247.6160286,247.6160286,247.6261967,,-4,down,1,0.2083712,None,276471,1,2023-10-06_11h38.02.243,EXP2,2023.1.3,89.40305579
177,0,177,0,247.8432443,248.8319665,248.8319665,248.8436735,,0.5,down,0,0.2199701,None,276471,1,2023-10-06_11h38.02.243,EXP2,2023.1.3,89.40305579
178,0,178,0,249.0687155,250.0595877,250.0595877,250.0707251,,0.5,down,0,0.2305439,None,276471,1,2023-10-06_11h38.02.243,EXP2,2023.1.3,89.40305579
179,0,179,0,250.312776,251.3044221,251.3044221,251.3148227,,2,up,0,0.0392275,None,276471,1,2023-10-06_11h38.02.243,EXP2,2023.1.3,89.40305579
180,0,180,0,251.3651741,252.3541388,252.3541388,252.3657294,,-4,down,1,0.068766,None,276471,1,2023-10-06_11h38.02.243,EXP2,2023.1.3,89.40305579
181,0,181,0,252.445421,253.4372711,253.4372711,253.4488178,253.7378458,0.5,down,0,0.3333572,None,276471,1,2023-10-06_11h38.02.243,EXP2,2023.1.3,89.40305579
182,0,182,0,253.7875217,254.7761245,254.7761245,254.7872093,,1,up,0,0.1675075,None,276471,1,2023-10-06_11h38.02.243,EXP2,2023.1.3,89.40305579
183,0,183,0,254.9567809,255.9538694,255.9538694,255.9650197,,0.5,down,0,0.0140091,None,276471,1,2023-10-06_11h38.02.243,EXP2,2023.1.3,89.40305579
184,0,184,0,255.9891719,256.9821904,256.9821904,256.9930305,,0.5,down,0,0.0685621,None,276471,1,2023-10-06_11h38.02.243,EXP2,2023.1.3,89.40305579
185,0,185,0,257.0771883,258.0647849,258.0647849,258.087127,,0.5,up,1,0.1342956,None,276471,1,2023-10-06_11h38.02.243,EXP2,2023.1.3,89.40305579
186,0,186,0,258.2224156,259.2154255,259.2154255,259.2259682,,-2,down,1,0.0822314,None,276471,1,2023-10-06_11h38.02.243,EXP2,2023.1.3,89.40305579
187,0,187,0,259.3208362,260.3155976,260.3155976,260.3261981,,2,up,0,0.059589,None,276471,1,2023-10-06_11h38.02.243,EXP2,2023.1.3,89.40305579
188,0,188,0,260.3989562,261.3873795,261.3873795,261.3987652,,-4,down,1,0.0213866,None,276471,1,2023-10-06_11h38.02.243,EXP2,2023.1.3,89.40305579
189,0,189,0,261.4228981,262.4209631,262.4209631,262.4315569,262.7212103,0.5,up,1,0.5304613,None,276471,1,2023-10-06_11h38.02.243,EXP2,2023.1.3,89.40305579
190,0,190,0,262.9682394,263.9593306,263.9593306,263.9704553,,0.5,down,0,0.2514382,None,276471,1,2023-10-06_11h38.02.243,EXP2,2023.1.3,89.40305579
191,0,191,0,264.2318836,265.2255399,265.2255399,265.2378099,,0.5,down,0,0.0575595,None,276471,1,2023-10-06_11h38.02.243,EXP2,2023.1.3,89.40305579
192,0,192,0,265.3100072,266.2981848,266.2981848,266.3100121,266.5988802,0.5,down,0,0.5424245,None,276471,1,2023-10-06_11h38.02.243,EXP2,2023.1.3,89.40305579
193,0,193,0,266.8562181,267.8486485,267.8486485,267.8597325,,-1,down,1,0.0301788,None,276471,1,2023-10-06_11h38.02.243,EXP2,2023.1.3,89.40305579
194,0,194,0,267.8981063,268.8878399,268.8878399,268.8983249,,0.5,down,0,0.0844209,None,276471,1,2023-10-06_11h38.02.243,EXP2,2023.1.3,89.40305579
195,0,195,0,268.9893765,269.9812544,269.9812544,269.9926282,,0.5,down,0,0.0397754,None,276471,1,2023-10-06_11h38.02.243,EXP2,2023.1.3,89.40305579
196,0,196,0,270.0429084,271.0366561,271.0366561,271.0479857,,0.5,down,0,0.2686036,None,276471,1,2023-10-06_11h38.02.243,EXP2,2023.1.3,89.40305579
197,0,197,0,271.3325034,272.320474,272.320474,272.331436,,0.5,up,1,0.181947,None,276471,1,2023-10-06_11h38.02.243,EXP2,2023.1.3,89.40305579
198,0,198,0,272.5237141,273.5150634,273.5150634,273.5267411,273.814938,-3,down,1,0.4555158,None,276471,1,2023-10-06_11h38.02.243,EXP2,2023.1.3,89.40305579
199,0,199,0,273.9877242,274.9758649,274.9758649,274.9868697,275.2872727,-4,up,0,0.2872303,None,276471,1,2023-10-06_11h38.02.243,EXP2,2023.1.3,89.40305579
